"Alaztoynak","AynaYol","Black","Blue","Bozdalga","Cirasyel","DerinSis","GeceCizgisi","GeceKivilcimi","GeceYankisi","Goksay","Green","Gumuscimen","Horse","KirikSaat","Kizildoruk","KumCizgisi","Kumtepe","MaviGolge","NVN1","NVN2","NVP1","NVP2","Pink","Purple","Red","Rnk","RoganJosh","SessizAdim","SessizRota","SisAdimi","SisTirisi","SolgunYaprak","TA1","TasNehir","TersAkim","Tumbleweed","Tunckanat","Turquoise","UzakMelodi","VN1","VN2","VP1","VP2","YalnizRota","YankiVadisi","Yeleveren","Yellow","anecdote_positivity","anecdote_vividness","background","canvas_backend","cinsinden","clock_backend","color_backend","control_text_0","control_text_1","control_text_2","count_content_script","count_control_script","count_experiment","count_final_script","count_getting_started","count_information_script","count_main_logger","count_main_loop","count_main_sequence","count_new_1_inline_script","count_new_1_loop","count_new_1_sequence","count_new_1_sketchpad","count_new_2_inline_script","count_new_2_sketchpad","count_new_3_inline_script","count_new_3_loop","count_new_3_sequence","count_new_3_sketchpad","count_new_6_inline_script","count_new_feedback","count_new_inline_script","count_new_loop","count_new_sequence","count_new_sketchpad","count_practice_script","count_table_script","count_task_script","count_welcome","cue_positivity","datetime","description","disable_garbage_collection","experiment_file","experiment_path","font_bold","font_family","font_italic","font_size","font_underline","foreground","form_clicks","form_response","fullscreen","height","i","i_CN","i_CP","i_NVN","i_NVP","i_VN","i_VP","i_color_order","i_horse_breeds_order","i_horse_names_order","i_ranking_order","i_yaris","info_text_1","info_text_2","info_text_2_5","info_text_3","info_text_4","ix","keyboard_backend","logfile","mouse_backend","number_of_cues","opensesame_codename","opensesame_version","response","response1","response2","response3","response_new_1_sketchpad","response_new_2_sketchpad","response_new_3_sketchpad","response_new_feedback","response_new_sketchpad","response_time","response_time_new_1_sketchpad","response_time_new_2_sketchpad","response_time_new_3_sketchpad","response_time_new_feedback","response_time_new_sketchpad","response_time_welcome","response_welcome","round_decimals","sampler_backend","sound_buf_size","sound_channels","sound_freq","sound_sample_size","start","subject_nr","subject_parity","tableText1","tableText2","tableText3","tableText4","tableText5","tableText6","tableText7","tableYaris","target_index","time_content_script","time_control_script","time_experiment","time_final_script","time_getting_started","time_information_script","time_main_logger","time_main_loop","time_main_sequence","time_new_1_inline_script","time_new_1_loop","time_new_1_sequence","time_new_1_sketchpad","time_new_2_inline_script","time_new_2_sketchpad","time_new_3_inline_script","time_new_3_loop","time_new_3_sequence","time_new_3_sketchpad","time_new_6_inline_script","time_new_feedback","time_new_inline_script","time_new_loop","time_new_sequence","time_new_sketchpad","time_practice_script","time_table_script","time_task_script","time_welcome","title","trial_anecdote","trial_color","trial_count","trial_horse_breed","trial_horse_name","trial_horse_sister_name","trial_no_text","trial_ranking_set","trial_text_1","trial_text_2","trial_text_3","trial_text_4","trial_text_5","width","y_position"
"Alaztoynak","Ayna Yol","C:\Users\B128-G\Pictures\project linda\BlackHorse.png","C:\Users\B128-G\Pictures\project linda\BlueHorse.png","Bozdalga","Çıraşyel","Derin Sis","Gece Çizgisi","Gece Kıvılcımı","Gece Yankısı","Göksay","C:\Users\B128-G\Pictures\project linda\GreenHorse.png","Gümüşçimen","NA","Kırık Saat","Kızıldoruk","Kum Çizgisi","Kumtepe","Mavi Gölge"," geçen hafta iyi bir performans sergileyemedi. Başından beri geride kaldı, hiç hızlanamadı. Yarış boyunca istenilen tempoya bir türlü ulaşamadı. Son düzlüğe gelindiğinde hızı oldukça düşmüştü ve yarışı da bu şekilde tamamladı. İzleyenlerin beklentilerini karşılayamadı."," geçen hafta yarışta başarısız bir performans sergiledi. İlk andan itibaren bekleneni veremedi. Yarış boyunca temposunu arttıramadı. Son düzlüğe gelinirken kondisyonunun yetersiz olduğu anlaşılıyordu. Tribünler büyük bir hayal kırıklığına uğradı."," geçen hafta yarışta harika bir performans sergiledi. Yarış boyunca kendini iyi gösterdi. Koşu boyunca piste çok iyi bir uyum sağladı. Güçlü bir performansla izleyenleri etkiledi. Yarışı izleyenler de bu performanstan oldukça etkilendi."," geçen hafta yarışta dikkat çeken bir performans sergiledi. Yarışa dengeli ve güçlü bir şekilde başladı. Yarış boyunca güçlü temposunu koruyarak dikkatleri üzerine çekti. Koşuyu da oldukça etkileyici bir şekilde tamamladı. Seyirciler tarafından hayli takdir edildi.","C:\Users\B128-G\Pictures\project linda\PinkHorse.png","C:\Users\B128-G\Pictures\project linda\PurpleHorse.png","C:\Users\B128-G\Pictures\project linda\RedHorse.png","NA","C:\Users\B128-G\Pictures\project linda\RoganJosh.png","Sessiz Adım","Sessiz Rota","Sis Adımı","Sis Tırısı","Solgun Yaprak"," geçen hafta yarışta ortalama bir performans sergiledi. Yarışa sakin bir başlangıç yaptı ve temposunu korudu. Ne çok geride kaldı ne de öne geçti. Genel olarak istikrarlı bir koşu sergiledi. Seyirciler dikkatle izledi. ","Taş Nehir","Ters Akım","C:\Users\B128-G\Pictures\project linda\TumbleweedHorse.png","Tunçkanat","C:\Users\B128-G\Pictures\project linda\TurquoiseHorse.png","Uzak Melodi"," geçen haftaki yarışta kötü bir performans sergiledi. Yarışın başında hemen geride kaldı. Her adımda, sanki çamura batıyormuş gibi ağırlaşıyordu. Son düzlüğe geldiğinde, bütün hızını kaybetmişti. Tribünlerden homurtularla birlikte yarışı tamamladı."," geçen hafta kötü bir performans sergiledi. Yarışın başında beklenenden yavaş hareket etti, hız kazanamadı. Pistte ilerlerken adımları dengesizleşti, ivme kaybetti. En sona doğru bacakları tükenmiş gibiydi. Seyircilerin hayal kırıklığı yüzlerinden okunuyordu.","geçen hafta yarışta müthiş bir performans sergiledi. Başlangıçta biraz gerideydi ama hızla öne fırladı. Son düzlüğe geldiğinde, rüzgar gibi hızlandı. Bileklerini esnekçe kullanarak ivme kazandı ve rakiplerini geride bıraktı. Sona doğru, herkesin gözü ondaydı. Tribünlerden alkışlar yükseldi.","geçen hafta yarışta etkileyici bir performans sergiledi. Güven veren bir başlangıcın ardından güçlü bir şekilde öne atıldı. Son virajda adımlarını hızlandırırken yelesi rüzgârla beraber savruluyordu. Kuvvetli bacaklarıyla son düzlükte ileriye fırladı. Nal sesleriyle birlikte tribünler de coştu.","Yalnız Rota","Yankı Vadisi","Yeleveren","C:\Users\B128-G\Pictures\project linda\YellowHorse.png","NA","NA","#D1D1D1","psycho"," cinsinden ","psycho","psycho","Bu yarış için tahmininizi yaptınız. 

 

 Devam etmek için SPACE tuşuna basın.","Birazdan karşınıza çıkacak ekrana Gece Çizgisi in cinsinden başka bir atla ilgili okuduğunuz hikayeden iki detay yazınız. 

 

 Devam etmek için SPACE tuşuna basın.","Birazdan karşınıza çıkacak ekranda Gece Çizgisi in cinsinden atlarla ilgili gördüğünüz ipuçlarından son gördüğünüz ipucunun yerini işaretleyiniz. 

 

 Devam etmek için SPACE tuşuna basın.","0","NA","0","0","NA","0","0","0","NA","NA","NA","NA","NA","NA","NA","NA","NA","NA","NA","NA","NA","NA","NA","NA","NA","0","0","NA","NA","NA","Mon May 26 10:44:08 2025","The main experiment item","False","project linda main.osexp","C:\Users\B128-G\Desktop\OZGUR\Horse Racing - Experiment 1","False","mono","False","18","no","white","no","my_image","yes","1080","9","0","0","0","0","0","0","NA","NA","NA","NA","1","Merhaba deneyimize hoş geldiniz! 

 Bu deneyde bilişsel karar alma süreçleri incelenmektedir. 

 Birazdan sizden bir at yarışı bahis oyununa katılmanız istenecektir. 

 

 Devam etmek için SPACE tuşuna basın.","Yarışlara bahis oynamadan önce tahminlerinizde size yardımcı olabilecek bazı bilgiler sunulacaktır. 

 Bu bilgileri istediğiniz gibi tahminlerinize kullanmak sizin elinizdedir. 

 

 Devam etmek için SPACE tuşuna basın.","Deneye katılanlar arasında en iyi performans gösteren %10luk dilime girmeniz halinde 0.5 kredi ekstra kazanacaksınız. 

 

 Devam etmek için SPACE tuşuna basın.","Katılacağınız bahis gününde toplam 8 yarış olacaktır. 

 Her bir yarışta 10 adet at yarışmaktadır. 

 Her bir yarış için tek bir at için bahis oynama opsiyonunuz bulunmaktadır. 

 

 Devam etmek için SPACE tuşuna basın.","Birazdan karşınıza çıkacak tabloyu dikkatlice inceleyiniz. 

 

 Devam etmek için SPACE tuşuna basın.","0","psycho","C:/Users/B128-G/Desktop/OZGUR/Horse Racing - Experiment 1/data/subject-534.csv","psycho","NA","Melodramatic Milgram","4.0.24","gece çizgisi cinslerinin birincisi ilk yarişma da tam olarak yedinic veya alyinci olmuştur diğer cins ise kendi yarişinda dördüncü olmuştur bu sebepten ortalamasini aldiğimizda gece çizgisinin altinci olduğunu düşünmekteyim","yes","no","no","NA","NA","NA","NA","NA","NA","NA","NA","NA","NA","NA","NA","NA","2","psycho","1024","2","48000","-16","experiment","534","even","Yanda deney boyunca bahis oynayacağınız yarışlar ve o yarışlarda sıralamasını tahmin etmenizi istediğimiz atların listesi verilmiştir. 

 Birazdan bu yarışlar için sırayla karşınıza bilgiler ve bahis seçenekleri çıkacaktır. 

 Bu isimleri ezberlemek zorunda değilsiniz. 

 Deney yapısını daha iyi anlayabilmeniz verilmiştir.","Yarış No.","At İsmi","At Resmi","İlk beşte bitirir","Son beşte bitirir","Deneyin asıl kısmı başlıyor. 

 Anlamadığınız bir durum varsa bu noktada deneye yürütücümüze sorunuz. 

 

 Devam etmek için SPACE tuşuna basın.","Yarış","4","11232.961700065061","NA","11232.820499921218","NA","NA","11233.06280001998","463056.0697999317","NA","NA","NA","NA","NA","NA","NA","NA","NA","NA","NA","NA","NA","NA","NA","NA","NA","NA","137172.507799929","73864.15049992502","NA","NA","Yeni deney"," geçen hafta yarışta ortalama bir performans sergiledi. Yarışa sakin bir başlangıç yaptı ve temposunu korudu. Ne çok geride kaldı ne de öne geçti. Genel olarak istikrarlı bir koşu sergiledi. Seyirciler dikkatle izledi. ","C:\Users\B128-G\Pictures\project linda\RoganJosh.png","11","Bozdalga","Gece Çizgisi","Solgun Yaprak","Practice","[6, 4, 5, 3, 7, 5, 4, 6, 7, 3]","Bu yarış için Gece Çizgisi adlı atın yarışta ilk 5’te mi son 5’te mi yer alacağına karar vermeniz istenecektir. Gece Çizgisi, Bozdalga cinsi bir attır. Birazdan Bozdalga atları ile ilgili ipuçları verilecektir. 

 

 Devam etmek için SPACE tuşuna basın.","Birazdan Gece Çizgisi’in cinsinden başka bir atla ilgili bir hikaye okuyacaksınız. 

 

 Devam etmek için SPACE tuşuna basın.","Bozdalga cinsinden Solgun Yaprak geçen hafta yarışta ortalama bir performans sergiledi. Yarışa sakin bir başlangıç yaptı ve temposunu korudu. Ne çok geride kaldı ne de öne geçti. Genel olarak istikrarlı bir koşu sergiledi. Seyirciler dikkatle izledi. 

 

 Devam etmek için SPACE tuşuna basın.","Bir sonraki ekranda Gece Çizgisi’in cinsinden başka atların önceki yarışlardaki sonuçlarını göreceksiniz. 

 Göreceğiniz ilk üç sonuç bütün katılımcılara otomatik olarak gösterilmektedir. Bu sonuçlardan sonra diğer sonuçları ipucu olarak alıp almamak sizin elinizdedir. 

 Deneyin sonunda sadece eşitlik halinde daha az ipucu kullanan kişi önde sayılacaktır. 

 

 Devam etmek için SPACE tuşuna basın.","Birazdan Gece Çizgisi’in cinsinden başka atların önceki yarışlardaki sonuçlarını göreceksiniz. 

 

 Devam etmek için SPACE tuşuna basın.","1920","0"
"Alaztoynak","Ayna Yol","C:\Users\B128-G\Pictures\project linda\BlackHorse.png","C:\Users\B128-G\Pictures\project linda\BlueHorse.png","Bozdalga","Çıraşyel","Derin Sis","Gece Çizgisi","Gece Kıvılcımı","Gece Yankısı","Göksay","C:\Users\B128-G\Pictures\project linda\GreenHorse.png","Gümüşçimen","NA","Kırık Saat","Kızıldoruk","Kum Çizgisi","Kumtepe","Mavi Gölge"," geçen hafta iyi bir performans sergileyemedi. Başından beri geride kaldı, hiç hızlanamadı. Yarış boyunca istenilen tempoya bir türlü ulaşamadı. Son düzlüğe gelindiğinde hızı oldukça düşmüştü ve yarışı da bu şekilde tamamladı. İzleyenlerin beklentilerini karşılayamadı."," geçen hafta yarışta başarısız bir performans sergiledi. İlk andan itibaren bekleneni veremedi. Yarış boyunca temposunu arttıramadı. Son düzlüğe gelinirken kondisyonunun yetersiz olduğu anlaşılıyordu. Tribünler büyük bir hayal kırıklığına uğradı."," geçen hafta yarışta harika bir performans sergiledi. Yarış boyunca kendini iyi gösterdi. Koşu boyunca piste çok iyi bir uyum sağladı. Güçlü bir performansla izleyenleri etkiledi. Yarışı izleyenler de bu performanstan oldukça etkilendi."," geçen hafta yarışta dikkat çeken bir performans sergiledi. Yarışa dengeli ve güçlü bir şekilde başladı. Yarış boyunca güçlü temposunu koruyarak dikkatleri üzerine çekti. Koşuyu da oldukça etkileyici bir şekilde tamamladı. Seyirciler tarafından hayli takdir edildi.","C:\Users\B128-G\Pictures\project linda\PinkHorse.png","C:\Users\B128-G\Pictures\project linda\PurpleHorse.png","C:\Users\B128-G\Pictures\project linda\RedHorse.png","NA","C:\Users\B128-G\Pictures\project linda\RoganJosh.png","Sessiz Adım","Sessiz Rota","Sis Adımı","Sis Tırısı","Solgun Yaprak"," geçen hafta yarışta ortalama bir performans sergiledi. Yarışa sakin bir başlangıç yaptı ve temposunu korudu. Ne çok geride kaldı ne de öne geçti. Genel olarak istikrarlı bir koşu sergiledi. Seyirciler dikkatle izledi. ","Taş Nehir","Ters Akım","C:\Users\B128-G\Pictures\project linda\TumbleweedHorse.png","Tunçkanat","C:\Users\B128-G\Pictures\project linda\TurquoiseHorse.png","Uzak Melodi"," geçen haftaki yarışta kötü bir performans sergiledi. Yarışın başında hemen geride kaldı. Her adımda, sanki çamura batıyormuş gibi ağırlaşıyordu. Son düzlüğe geldiğinde, bütün hızını kaybetmişti. Tribünlerden homurtularla birlikte yarışı tamamladı."," geçen hafta kötü bir performans sergiledi. Yarışın başında beklenenden yavaş hareket etti, hız kazanamadı. Pistte ilerlerken adımları dengesizleşti, ivme kaybetti. En sona doğru bacakları tükenmiş gibiydi. Seyircilerin hayal kırıklığı yüzlerinden okunuyordu.","geçen hafta yarışta müthiş bir performans sergiledi. Başlangıçta biraz gerideydi ama hızla öne fırladı. Son düzlüğe geldiğinde, rüzgar gibi hızlandı. Bileklerini esnekçe kullanarak ivme kazandı ve rakiplerini geride bıraktı. Sona doğru, herkesin gözü ondaydı. Tribünlerden alkışlar yükseldi.","geçen hafta yarışta etkileyici bir performans sergiledi. Güven veren bir başlangıcın ardından güçlü bir şekilde öne atıldı. Son virajda adımlarını hızlandırırken yelesi rüzgârla beraber savruluyordu. Kuvvetli bacaklarıyla son düzlükte ileriye fırladı. Nal sesleriyle birlikte tribünler de coştu.","Yalnız Rota","Yankı Vadisi","Yeleveren","C:\Users\B128-G\Pictures\project linda\YellowHorse.png","1","0","#D1D1D1","psycho"," cinsinden ","psycho","psycho","Bu yarış için tahmininizi yaptınız. 

 

 Devam etmek için SPACE tuşuna basın.","Birazdan karşınıza çıkacak ekrana Ayna Yol in cinsinden başka bir atla ilgili okuduğunuz hikayeden iki detay yazınız. 

 

 Devam etmek için SPACE tuşuna basın.","Birazdan karşınıza çıkacak ekranda Ayna Yol in cinsinden atlarla ilgili gördüğünüz ipuçlarından son gördüğünüz ipucunun yerini işaretleyiniz. 

 

 Devam etmek için SPACE tuşuna basın.","0","0","0","0","NA","0","1","0","0","NA","NA","NA","NA","NA","NA","NA","NA","NA","NA","NA","NA","NA","NA","NA","NA","0","0","0","NA","1","Mon May 26 10:44:08 2025","The main experiment item","False","project linda main.osexp","C:\Users\B128-G\Desktop\OZGUR\Horse Racing - Experiment 1","False","mono","False","18","no","white","no","my_image","yes","1080","9","0","1","0","1","0","0","NA","NA","NA","NA","2","Merhaba deneyimize hoş geldiniz! 

 Bu deneyde bilişsel karar alma süreçleri incelenmektedir. 

 Birazdan sizden bir at yarışı bahis oyununa katılmanız istenecektir. 

 

 Devam etmek için SPACE tuşuna basın.","Yarışlara bahis oynamadan önce tahminlerinizde size yardımcı olabilecek bazı bilgiler sunulacaktır. 

 Bu bilgileri istediğiniz gibi tahminlerinize kullanmak sizin elinizdedir. 

 

 Devam etmek için SPACE tuşuna basın.","Deneye katılanlar arasında en iyi performans gösteren %10luk dilime girmeniz halinde 0.5 kredi ekstra kazanacaksınız. 

 

 Devam etmek için SPACE tuşuna basın.","Katılacağınız bahis gününde toplam 8 yarış olacaktır. 

 Her bir yarışta 10 adet at yarışmaktadır. 

 Her bir yarış için tek bir at için bahis oynama opsiyonunuz bulunmaktadır. 

 

 Devam etmek için SPACE tuşuna basın.","Birazdan karşınıza çıkacak tabloyu dikkatlice inceleyiniz. 

 

 Devam etmek için SPACE tuşuna basın.","1","psycho","C:/Users/B128-G/Desktop/OZGUR/Horse Racing - Experiment 1/data/subject-534.csv","psycho","3","Melodramatic Milgram","4.0.24","ayna yol cinsinden başka bir atin yani yelveren cinsinin oldukça iyi bir performans sergilediği ve performansi ile seyircileri etkilediği belirtilmiştir","yes","no","no","NA","NA","NA","NA","NA","NA","NA","NA","NA","NA","NA","NA","NA","2","psycho","1024","2","48000","-16","experiment","534","even","Yanda deney boyunca bahis oynayacağınız yarışlar ve o yarışlarda sıralamasını tahmin etmenizi istediğimiz atların listesi verilmiştir. 

 Birazdan bu yarışlar için sırayla karşınıza bilgiler ve bahis seçenekleri çıkacaktır. 

 Bu isimleri ezberlemek zorunda değilsiniz. 

 Deney yapısını daha iyi anlayabilmeniz verilmiştir.","Yarış No.","At İsmi","At Resmi","İlk beşte bitirir","Son beşte bitirir","Deneyin asıl kısmı başlıyor. 

 Anlamadığınız bir durum varsa bu noktada deneye yürütücümüze sorunuz. 

 

 Devam etmek için SPACE tuşuna basın.","Yarış","1","11232.961700065061","582508.9531000704","11232.820499921218","NA","NA","11233.06280001998","690487.6188999042","463067.0853999909","463069.482000079","NA","NA","NA","NA","NA","NA","NA","NA","NA","NA","NA","NA","NA","NA","NA","NA","137172.507799929","73864.15049992502","463069.52739995904","NA","Yeni deney"," geçen hafta yarışta harika bir performans sergiledi. Yarış boyunca kendini iyi gösterdi. Koşu boyunca piste çok iyi bir uyum sağladı. Güçlü bir performansla izleyenleri etkiledi. Yarışı izleyenler de bu performanstan oldukça etkilendi.","C:\Users\B128-G\Pictures\project linda\PinkHorse.png","11","Yeleveren","Ayna Yol","Gece Yankısı","1.Yarış","[6, 4, 2, 3, 1, 3, 8, 4, 4, 6]","Bu yarış için Ayna Yol adlı atın yarışta ilk 5’te mi son 5’te mi yer alacağına karar vermeniz istenecektir. Ayna Yol, Yeleveren cinsi bir attır. Birazdan Yeleveren atları ile ilgili ipuçları verilecektir. 

 

 Devam etmek için SPACE tuşuna basın.","Birazdan Ayna Yol’in cinsinden başka bir atla ilgili bir hikaye okuyacaksınız. 

 

 Devam etmek için SPACE tuşuna basın.","Yeleveren cinsinden Gece Yankısı geçen hafta yarışta harika bir performans sergiledi. Yarış boyunca kendini iyi gösterdi. Koşu boyunca piste çok iyi bir uyum sağladı. Güçlü bir performansla izleyenleri etkiledi. Yarışı izleyenler de bu performanstan oldukça etkilendi.

 

 Devam etmek için SPACE tuşuna basın.","Bir sonraki ekranda Ayna Yol’in cinsinden başka atların önceki yarışlardaki sonuçlarını göreceksiniz. 

 Göreceğiniz ilk üç sonuç bütün katılımcılara otomatik olarak gösterilmektedir. Bu sonuçlardan sonra diğer sonuçları ipucu olarak alıp almamak sizin elinizdedir. 

 Deneyin sonunda sadece eşitlik halinde daha az ipucu kullanan kişi önde sayılacaktır. 

 

 Devam etmek için SPACE tuşuna basın.","Birazdan Ayna Yol’in cinsinden başka atların önceki yarışlardaki sonuçlarını göreceksiniz. 

 

 Devam etmek için SPACE tuşuna basın.","1920","0"
"Alaztoynak","Ayna Yol","C:\Users\B128-G\Pictures\project linda\BlackHorse.png","C:\Users\B128-G\Pictures\project linda\BlueHorse.png","Bozdalga","Çıraşyel","Derin Sis","Gece Çizgisi","Gece Kıvılcımı","Gece Yankısı","Göksay","C:\Users\B128-G\Pictures\project linda\GreenHorse.png","Gümüşçimen","NA","Kırık Saat","Kızıldoruk","Kum Çizgisi","Kumtepe","Mavi Gölge"," geçen hafta iyi bir performans sergileyemedi. Başından beri geride kaldı, hiç hızlanamadı. Yarış boyunca istenilen tempoya bir türlü ulaşamadı. Son düzlüğe gelindiğinde hızı oldukça düşmüştü ve yarışı da bu şekilde tamamladı. İzleyenlerin beklentilerini karşılayamadı."," geçen hafta yarışta başarısız bir performans sergiledi. İlk andan itibaren bekleneni veremedi. Yarış boyunca temposunu arttıramadı. Son düzlüğe gelinirken kondisyonunun yetersiz olduğu anlaşılıyordu. Tribünler büyük bir hayal kırıklığına uğradı."," geçen hafta yarışta harika bir performans sergiledi. Yarış boyunca kendini iyi gösterdi. Koşu boyunca piste çok iyi bir uyum sağladı. Güçlü bir performansla izleyenleri etkiledi. Yarışı izleyenler de bu performanstan oldukça etkilendi."," geçen hafta yarışta dikkat çeken bir performans sergiledi. Yarışa dengeli ve güçlü bir şekilde başladı. Yarış boyunca güçlü temposunu koruyarak dikkatleri üzerine çekti. Koşuyu da oldukça etkileyici bir şekilde tamamladı. Seyirciler tarafından hayli takdir edildi.","C:\Users\B128-G\Pictures\project linda\PinkHorse.png","C:\Users\B128-G\Pictures\project linda\PurpleHorse.png","C:\Users\B128-G\Pictures\project linda\RedHorse.png","NA","C:\Users\B128-G\Pictures\project linda\RoganJosh.png","Sessiz Adım","Sessiz Rota","Sis Adımı","Sis Tırısı","Solgun Yaprak"," geçen hafta yarışta ortalama bir performans sergiledi. Yarışa sakin bir başlangıç yaptı ve temposunu korudu. Ne çok geride kaldı ne de öne geçti. Genel olarak istikrarlı bir koşu sergiledi. Seyirciler dikkatle izledi. ","Taş Nehir","Ters Akım","C:\Users\B128-G\Pictures\project linda\TumbleweedHorse.png","Tunçkanat","C:\Users\B128-G\Pictures\project linda\TurquoiseHorse.png","Uzak Melodi"," geçen haftaki yarışta kötü bir performans sergiledi. Yarışın başında hemen geride kaldı. Her adımda, sanki çamura batıyormuş gibi ağırlaşıyordu. Son düzlüğe geldiğinde, bütün hızını kaybetmişti. Tribünlerden homurtularla birlikte yarışı tamamladı."," geçen hafta kötü bir performans sergiledi. Yarışın başında beklenenden yavaş hareket etti, hız kazanamadı. Pistte ilerlerken adımları dengesizleşti, ivme kaybetti. En sona doğru bacakları tükenmiş gibiydi. Seyircilerin hayal kırıklığı yüzlerinden okunuyordu.","geçen hafta yarışta müthiş bir performans sergiledi. Başlangıçta biraz gerideydi ama hızla öne fırladı. Son düzlüğe geldiğinde, rüzgar gibi hızlandı. Bileklerini esnekçe kullanarak ivme kazandı ve rakiplerini geride bıraktı. Sona doğru, herkesin gözü ondaydı. Tribünlerden alkışlar yükseldi.","geçen hafta yarışta etkileyici bir performans sergiledi. Güven veren bir başlangıcın ardından güçlü bir şekilde öne atıldı. Son virajda adımlarını hızlandırırken yelesi rüzgârla beraber savruluyordu. Kuvvetli bacaklarıyla son düzlükte ileriye fırladı. Nal sesleriyle birlikte tribünler de coştu.","Yalnız Rota","Yankı Vadisi","Yeleveren","C:\Users\B128-G\Pictures\project linda\YellowHorse.png","1","1","#D1D1D1","psycho"," cinsinden ","psycho","psycho","Bu yarış için tahmininizi yaptınız. 

 

 Devam etmek için SPACE tuşuna basın.","Birazdan karşınıza çıkacak ekrana Yankı Vadisi in cinsinden başka bir atla ilgili okuduğunuz hikayeden iki detay yazınız. 

 

 Devam etmek için SPACE tuşuna basın.","Birazdan karşınıza çıkacak ekranda Yankı Vadisi in cinsinden atlarla ilgili gördüğünüz ipuçlarından son gördüğünüz ipucunun yerini işaretleyiniz. 

 

 Devam etmek için SPACE tuşuna basın.","0","1","0","0","NA","0","2","0","1","NA","NA","NA","NA","NA","NA","NA","NA","NA","NA","NA","NA","NA","NA","NA","NA","0","0","1","NA","1","Mon May 26 10:44:08 2025","The main experiment item","False","project linda main.osexp","C:\Users\B128-G\Desktop\OZGUR\Horse Racing - Experiment 1","False","mono","False","18","no","white","no","my_image","yes","1080","9","0","2","0","1","0","1","NA","NA","NA","NA","3","Merhaba deneyimize hoş geldiniz! 

 Bu deneyde bilişsel karar alma süreçleri incelenmektedir. 

 Birazdan sizden bir at yarışı bahis oyununa katılmanız istenecektir. 

 

 Devam etmek için SPACE tuşuna basın.","Yarışlara bahis oynamadan önce tahminlerinizde size yardımcı olabilecek bazı bilgiler sunulacaktır. 

 Bu bilgileri istediğiniz gibi tahminlerinize kullanmak sizin elinizdedir. 

 

 Devam etmek için SPACE tuşuna basın.","Deneye katılanlar arasında en iyi performans gösteren %10luk dilime girmeniz halinde 0.5 kredi ekstra kazanacaksınız. 

 

 Devam etmek için SPACE tuşuna basın.","Katılacağınız bahis gününde toplam 8 yarış olacaktır. 

 Her bir yarışta 10 adet at yarışmaktadır. 

 Her bir yarış için tek bir at için bahis oynama opsiyonunuz bulunmaktadır. 

 

 Devam etmek için SPACE tuşuna basın.","Birazdan karşınıza çıkacak tabloyu dikkatlice inceleyiniz. 

 

 Devam etmek için SPACE tuşuna basın.","2","psycho","C:/Users/B128-G/Desktop/OZGUR/Horse Racing - Experiment 1/data/subject-534.csv","psycho","3","Melodramatic Milgram","4.0.24","ilk düzlükte o kadar iyi başlamasada son düzlükte ivmelenerek iyi bir pozisyona gelmiştir ve bu sebepten seyirciler ati alkişlamişlardir","yes","no","no","NA","NA","NA","NA","NA","NA","NA","NA","NA","NA","NA","NA","NA","2","psycho","1024","2","48000","-16","experiment","534","even","Yanda deney boyunca bahis oynayacağınız yarışlar ve o yarışlarda sıralamasını tahmin etmenizi istediğimiz atların listesi verilmiştir. 

 Birazdan bu yarışlar için sırayla karşınıza bilgiler ve bahis seçenekleri çıkacaktır. 

 Bu isimleri ezberlemek zorunda değilsiniz. 

 Deney yapısını daha iyi anlayabilmeniz verilmiştir.","Yarış No.","At İsmi","At Resmi","İlk beşte bitirir","Son beşte bitirir","Deneyin asıl kısmı başlıyor. 

 Anlamadığınız bir durum varsa bu noktada deneye yürütücümüze sorunuz. 

 

 Devam etmek için SPACE tuşuna basın.","Yarış","2","11232.961700065061","782569.1184999887","11232.820499921218","NA","NA","11233.06280001998","867263.4698001202","463067.0853999909","690508.4051000886","NA","NA","NA","NA","NA","NA","NA","NA","NA","NA","NA","NA","NA","NA","NA","NA","137172.507799929","73864.15049992502","690508.4635000676","NA","Yeni deney","geçen hafta yarışta müthiş bir performans sergiledi. Başlangıçta biraz gerideydi ama hızla öne fırladı. Son düzlüğe geldiğinde, rüzgar gibi hızlandı. Bileklerini esnekçe kullanarak ivme kazandı ve rakiplerini geride bıraktı. Sona doğru, herkesin gözü ondaydı. Tribünlerden alkışlar yükseldi.","C:\Users\B128-G\Pictures\project linda\BlueHorse.png","11","Kumtepe","Yankı Vadisi","Derin Sis","2.Yarış","[5, 2, 3, 6, 4, 5, 2, 7, 1, 3]","Bu yarış için Yankı Vadisi adlı atın yarışta ilk 5’te mi son 5’te mi yer alacağına karar vermeniz istenecektir. Yankı Vadisi, Kumtepe cinsi bir attır. Birazdan Kumtepe atları ile ilgili ipuçları verilecektir. 

 

 Devam etmek için SPACE tuşuna basın.","Birazdan Yankı Vadisi’in cinsinden başka bir atla ilgili bir hikaye okuyacaksınız. 

 

 Devam etmek için SPACE tuşuna basın.","Kumtepe cinsinden Derin Sisgeçen hafta yarışta müthiş bir performans sergiledi. Başlangıçta biraz gerideydi ama hızla öne fırladı. Son düzlüğe geldiğinde, rüzgar gibi hızlandı. Bileklerini esnekçe kullanarak ivme kazandı ve rakiplerini geride bıraktı. Sona doğru, herkesin gözü ondaydı. Tribünlerden alkışlar yükseldi.

 

 Devam etmek için SPACE tuşuna basın.","Bir sonraki ekranda Yankı Vadisi’in cinsinden başka atların önceki yarışlardaki sonuçlarını göreceksiniz. 

 Göreceğiniz ilk üç sonuç bütün katılımcılara otomatik olarak gösterilmektedir. Bu sonuçlardan sonra diğer sonuçları ipucu olarak alıp almamak sizin elinizdedir. 

 Deneyin sonunda sadece eşitlik halinde daha az ipucu kullanan kişi önde sayılacaktır. 

 

 Devam etmek için SPACE tuşuna basın.","Birazdan Yankı Vadisi’in cinsinden başka atların önceki yarışlardaki sonuçlarını göreceksiniz. 

 

 Devam etmek için SPACE tuşuna basın.","1920","0"
"Alaztoynak","Ayna Yol","C:\Users\B128-G\Pictures\project linda\BlackHorse.png","C:\Users\B128-G\Pictures\project linda\BlueHorse.png","Bozdalga","Çıraşyel","Derin Sis","Gece Çizgisi","Gece Kıvılcımı","Gece Yankısı","Göksay","C:\Users\B128-G\Pictures\project linda\GreenHorse.png","Gümüşçimen","NA","Kırık Saat","Kızıldoruk","Kum Çizgisi","Kumtepe","Mavi Gölge"," geçen hafta iyi bir performans sergileyemedi. Başından beri geride kaldı, hiç hızlanamadı. Yarış boyunca istenilen tempoya bir türlü ulaşamadı. Son düzlüğe gelindiğinde hızı oldukça düşmüştü ve yarışı da bu şekilde tamamladı. İzleyenlerin beklentilerini karşılayamadı."," geçen hafta yarışta başarısız bir performans sergiledi. İlk andan itibaren bekleneni veremedi. Yarış boyunca temposunu arttıramadı. Son düzlüğe gelinirken kondisyonunun yetersiz olduğu anlaşılıyordu. Tribünler büyük bir hayal kırıklığına uğradı."," geçen hafta yarışta harika bir performans sergiledi. Yarış boyunca kendini iyi gösterdi. Koşu boyunca piste çok iyi bir uyum sağladı. Güçlü bir performansla izleyenleri etkiledi. Yarışı izleyenler de bu performanstan oldukça etkilendi."," geçen hafta yarışta dikkat çeken bir performans sergiledi. Yarışa dengeli ve güçlü bir şekilde başladı. Yarış boyunca güçlü temposunu koruyarak dikkatleri üzerine çekti. Koşuyu da oldukça etkileyici bir şekilde tamamladı. Seyirciler tarafından hayli takdir edildi.","C:\Users\B128-G\Pictures\project linda\PinkHorse.png","C:\Users\B128-G\Pictures\project linda\PurpleHorse.png","C:\Users\B128-G\Pictures\project linda\RedHorse.png","NA","C:\Users\B128-G\Pictures\project linda\RoganJosh.png","Sessiz Adım","Sessiz Rota","Sis Adımı","Sis Tırısı","Solgun Yaprak"," geçen hafta yarışta ortalama bir performans sergiledi. Yarışa sakin bir başlangıç yaptı ve temposunu korudu. Ne çok geride kaldı ne de öne geçti. Genel olarak istikrarlı bir koşu sergiledi. Seyirciler dikkatle izledi. ","Taş Nehir","Ters Akım","C:\Users\B128-G\Pictures\project linda\TumbleweedHorse.png","Tunçkanat","C:\Users\B128-G\Pictures\project linda\TurquoiseHorse.png","Uzak Melodi"," geçen haftaki yarışta kötü bir performans sergiledi. Yarışın başında hemen geride kaldı. Her adımda, sanki çamura batıyormuş gibi ağırlaşıyordu. Son düzlüğe geldiğinde, bütün hızını kaybetmişti. Tribünlerden homurtularla birlikte yarışı tamamladı."," geçen hafta kötü bir performans sergiledi. Yarışın başında beklenenden yavaş hareket etti, hız kazanamadı. Pistte ilerlerken adımları dengesizleşti, ivme kaybetti. En sona doğru bacakları tükenmiş gibiydi. Seyircilerin hayal kırıklığı yüzlerinden okunuyordu.","geçen hafta yarışta müthiş bir performans sergiledi. Başlangıçta biraz gerideydi ama hızla öne fırladı. Son düzlüğe geldiğinde, rüzgar gibi hızlandı. Bileklerini esnekçe kullanarak ivme kazandı ve rakiplerini geride bıraktı. Sona doğru, herkesin gözü ondaydı. Tribünlerden alkışlar yükseldi.","geçen hafta yarışta etkileyici bir performans sergiledi. Güven veren bir başlangıcın ardından güçlü bir şekilde öne atıldı. Son virajda adımlarını hızlandırırken yelesi rüzgârla beraber savruluyordu. Kuvvetli bacaklarıyla son düzlükte ileriye fırladı. Nal sesleriyle birlikte tribünler de coştu.","Yalnız Rota","Yankı Vadisi","Yeleveren","C:\Users\B128-G\Pictures\project linda\YellowHorse.png","0","0","#D1D1D1","psycho"," cinsinden ","psycho","psycho","Bu yarış için tahmininizi yaptınız. 

 

 Devam etmek için SPACE tuşuna basın.","Birazdan karşınıza çıkacak ekrana Sessiz Rota in cinsinden başka bir atla ilgili okuduğunuz hikayeden iki detay yazınız. 

 

 Devam etmek için SPACE tuşuna basın.","Birazdan karşınıza çıkacak ekranda Sessiz Rota in cinsinden atlarla ilgili gördüğünüz ipuçlarından son gördüğünüz ipucunun yerini işaretleyiniz. 

 

 Devam etmek için SPACE tuşuna basın.","0","2","0","0","NA","0","3","0","2","NA","NA","NA","NA","NA","NA","NA","NA","NA","NA","NA","NA","NA","NA","NA","NA","0","0","2","NA","1","Mon May 26 10:44:08 2025","The main experiment item","False","project linda main.osexp","C:\Users\B128-G\Desktop\OZGUR\Horse Racing - Experiment 1","False","mono","False","18","no","white","no","my_image","yes","1080","9","0","3","1","1","0","1","NA","NA","NA","NA","4","Merhaba deneyimize hoş geldiniz! 

 Bu deneyde bilişsel karar alma süreçleri incelenmektedir. 

 Birazdan sizden bir at yarışı bahis oyununa katılmanız istenecektir. 

 

 Devam etmek için SPACE tuşuna basın.","Yarışlara bahis oynamadan önce tahminlerinizde size yardımcı olabilecek bazı bilgiler sunulacaktır. 

 Bu bilgileri istediğiniz gibi tahminlerinize kullanmak sizin elinizdedir. 

 

 Devam etmek için SPACE tuşuna basın.","Deneye katılanlar arasında en iyi performans gösteren %10luk dilime girmeniz halinde 0.5 kredi ekstra kazanacaksınız. 

 

 Devam etmek için SPACE tuşuna basın.","Katılacağınız bahis gününde toplam 8 yarış olacaktır. 

 Her bir yarışta 10 adet at yarışmaktadır. 

 Her bir yarış için tek bir at için bahis oynama opsiyonunuz bulunmaktadır. 

 

 Devam etmek için SPACE tuşuna basın.","Birazdan karşınıza çıkacak tabloyu dikkatlice inceleyiniz. 

 

 Devam etmek için SPACE tuşuna basın.","3","psycho","C:/Users/B128-G/Desktop/OZGUR/Horse Racing - Experiment 1/data/subject-534.csv","psycho","3","Melodramatic Milgram","4.0.24","seyircileri hayal kirikliğina uğrettiğini ve baştan eri iyi bir performans beklentisi olmasina rağmen iyi bir performans sergilemediği belirtilmiştir","yes","yes","no","NA","NA","NA","NA","NA","NA","NA","NA","NA","NA","NA","NA","NA","2","psycho","1024","2","48000","-16","experiment","534","even","Yanda deney boyunca bahis oynayacağınız yarışlar ve o yarışlarda sıralamasını tahmin etmenizi istediğimiz atların listesi verilmiştir. 

 Birazdan bu yarışlar için sırayla karşınıza bilgiler ve bahis seçenekleri çıkacaktır. 

 Bu isimleri ezberlemek zorunda değilsiniz. 

 Deney yapısını daha iyi anlayabilmeniz verilmiştir.","Yarış No.","At İsmi","At Resmi","İlk beşte bitirir","Son beşte bitirir","Deneyin asıl kısmı başlıyor. 

 Anlamadığınız bir durum varsa bu noktada deneye yürütücümüze sorunuz. 

 

 Devam etmek için SPACE tuşuna basın.","Yarış","3","11232.961700065061","932097.835399909","11232.820499921218","NA","NA","11233.06280001998","1035767.3792999703","463067.0853999909","867271.8386999331","NA","NA","NA","NA","NA","NA","NA","NA","NA","NA","NA","NA","NA","NA","NA","NA","137172.507799929","73864.15049992502","867271.8974999152","NA","Yeni deney"," geçen hafta yarışta başarısız bir performans sergiledi. İlk andan itibaren bekleneni veremedi. Yarış boyunca temposunu arttıramadı. Son düzlüğe gelinirken kondisyonunun yetersiz olduğu anlaşılıyordu. Tribünler büyük bir hayal kırıklığına uğradı.","C:\Users\B128-G\Pictures\project linda\GreenHorse.png","11","Çıraşyel","Sessiz Rota","Uzak Melodi","3.Yarış","[6, 1, 4, 6, 4, 1, 3, 8, 4, 4]","Bu yarış için Sessiz Rota adlı atın yarışta ilk 5’te mi son 5’te mi yer alacağına karar vermeniz istenecektir. Sessiz Rota, Çıraşyel cinsi bir attır. Birazdan Çıraşyel atları ile ilgili ipuçları verilecektir. 

 

 Devam etmek için SPACE tuşuna basın.","Birazdan Sessiz Rota’in cinsinden başka bir atla ilgili bir hikaye okuyacaksınız. 

 

 Devam etmek için SPACE tuşuna basın.","Çıraşyel cinsinden Uzak Melodi geçen hafta yarışta başarısız bir performans sergiledi. İlk andan itibaren bekleneni veremedi. Yarış boyunca temposunu arttıramadı. Son düzlüğe gelinirken kondisyonunun yetersiz olduğu anlaşılıyordu. Tribünler büyük bir hayal kırıklığına uğradı.

 

 Devam etmek için SPACE tuşuna basın.","Bir sonraki ekranda Sessiz Rota’in cinsinden başka atların önceki yarışlardaki sonuçlarını göreceksiniz. 

 Göreceğiniz ilk üç sonuç bütün katılımcılara otomatik olarak gösterilmektedir. Bu sonuçlardan sonra diğer sonuçları ipucu olarak alıp almamak sizin elinizdedir. 

 Deneyin sonunda sadece eşitlik halinde daha az ipucu kullanan kişi önde sayılacaktır. 

 

 Devam etmek için SPACE tuşuna basın.","Birazdan Sessiz Rota’in cinsinden başka atların önceki yarışlardaki sonuçlarını göreceksiniz. 

 

 Devam etmek için SPACE tuşuna basın.","1920","0"
"Alaztoynak","Ayna Yol","C:\Users\B128-G\Pictures\project linda\BlackHorse.png","C:\Users\B128-G\Pictures\project linda\BlueHorse.png","Bozdalga","Çıraşyel","Derin Sis","Gece Çizgisi","Gece Kıvılcımı","Gece Yankısı","Göksay","C:\Users\B128-G\Pictures\project linda\GreenHorse.png","Gümüşçimen","NA","Kırık Saat","Kızıldoruk","Kum Çizgisi","Kumtepe","Mavi Gölge"," geçen hafta iyi bir performans sergileyemedi. Başından beri geride kaldı, hiç hızlanamadı. Yarış boyunca istenilen tempoya bir türlü ulaşamadı. Son düzlüğe gelindiğinde hızı oldukça düşmüştü ve yarışı da bu şekilde tamamladı. İzleyenlerin beklentilerini karşılayamadı."," geçen hafta yarışta başarısız bir performans sergiledi. İlk andan itibaren bekleneni veremedi. Yarış boyunca temposunu arttıramadı. Son düzlüğe gelinirken kondisyonunun yetersiz olduğu anlaşılıyordu. Tribünler büyük bir hayal kırıklığına uğradı."," geçen hafta yarışta harika bir performans sergiledi. Yarış boyunca kendini iyi gösterdi. Koşu boyunca piste çok iyi bir uyum sağladı. Güçlü bir performansla izleyenleri etkiledi. Yarışı izleyenler de bu performanstan oldukça etkilendi."," geçen hafta yarışta dikkat çeken bir performans sergiledi. Yarışa dengeli ve güçlü bir şekilde başladı. Yarış boyunca güçlü temposunu koruyarak dikkatleri üzerine çekti. Koşuyu da oldukça etkileyici bir şekilde tamamladı. Seyirciler tarafından hayli takdir edildi.","C:\Users\B128-G\Pictures\project linda\PinkHorse.png","C:\Users\B128-G\Pictures\project linda\PurpleHorse.png","C:\Users\B128-G\Pictures\project linda\RedHorse.png","NA","C:\Users\B128-G\Pictures\project linda\RoganJosh.png","Sessiz Adım","Sessiz Rota","Sis Adımı","Sis Tırısı","Solgun Yaprak"," geçen hafta yarışta ortalama bir performans sergiledi. Yarışa sakin bir başlangıç yaptı ve temposunu korudu. Ne çok geride kaldı ne de öne geçti. Genel olarak istikrarlı bir koşu sergiledi. Seyirciler dikkatle izledi. ","Taş Nehir","Ters Akım","C:\Users\B128-G\Pictures\project linda\TumbleweedHorse.png","Tunçkanat","C:\Users\B128-G\Pictures\project linda\TurquoiseHorse.png","Uzak Melodi"," geçen haftaki yarışta kötü bir performans sergiledi. Yarışın başında hemen geride kaldı. Her adımda, sanki çamura batıyormuş gibi ağırlaşıyordu. Son düzlüğe geldiğinde, bütün hızını kaybetmişti. Tribünlerden homurtularla birlikte yarışı tamamladı."," geçen hafta kötü bir performans sergiledi. Yarışın başında beklenenden yavaş hareket etti, hız kazanamadı. Pistte ilerlerken adımları dengesizleşti, ivme kaybetti. En sona doğru bacakları tükenmiş gibiydi. Seyircilerin hayal kırıklığı yüzlerinden okunuyordu.","geçen hafta yarışta müthiş bir performans sergiledi. Başlangıçta biraz gerideydi ama hızla öne fırladı. Son düzlüğe geldiğinde, rüzgar gibi hızlandı. Bileklerini esnekçe kullanarak ivme kazandı ve rakiplerini geride bıraktı. Sona doğru, herkesin gözü ondaydı. Tribünlerden alkışlar yükseldi.","geçen hafta yarışta etkileyici bir performans sergiledi. Güven veren bir başlangıcın ardından güçlü bir şekilde öne atıldı. Son virajda adımlarını hızlandırırken yelesi rüzgârla beraber savruluyordu. Kuvvetli bacaklarıyla son düzlükte ileriye fırladı. Nal sesleriyle birlikte tribünler de coştu.","Yalnız Rota","Yankı Vadisi","Yeleveren","C:\Users\B128-G\Pictures\project linda\YellowHorse.png","0","1","#D1D1D1","psycho"," cinsinden ","psycho","psycho","Bu yarış için tahmininizi yaptınız. 

 

 Devam etmek için SPACE tuşuna basın.","Birazdan karşınıza çıkacak ekrana Mavi Gölge in cinsinden başka bir atla ilgili okuduğunuz hikayeden iki detay yazınız. 

 

 Devam etmek için SPACE tuşuna basın.","Birazdan karşınıza çıkacak ekranda Mavi Gölge in cinsinden atlarla ilgili gördüğünüz ipuçlarından son gördüğünüz ipucunun yerini işaretleyiniz. 

 

 Devam etmek için SPACE tuşuna basın.","0","3","0","0","NA","0","4","0","3","NA","NA","NA","NA","NA","NA","NA","NA","NA","NA","NA","NA","NA","NA","NA","NA","0","0","3","NA","0","Mon May 26 10:44:08 2025","The main experiment item","False","project linda main.osexp","C:\Users\B128-G\Desktop\OZGUR\Horse Racing - Experiment 1","False","mono","False","18","no","white","no","my_image","yes","1080","9","1","3","1","1","1","1","NA","NA","NA","NA","5","Merhaba deneyimize hoş geldiniz! 

 Bu deneyde bilişsel karar alma süreçleri incelenmektedir. 

 Birazdan sizden bir at yarışı bahis oyununa katılmanız istenecektir. 

 

 Devam etmek için SPACE tuşuna basın.","Yarışlara bahis oynamadan önce tahminlerinizde size yardımcı olabilecek bazı bilgiler sunulacaktır. 

 Bu bilgileri istediğiniz gibi tahminlerinize kullanmak sizin elinizdedir. 

 

 Devam etmek için SPACE tuşuna basın.","Deneye katılanlar arasında en iyi performans gösteren %10luk dilime girmeniz halinde 0.5 kredi ekstra kazanacaksınız. 

 

 Devam etmek için SPACE tuşuna basın.","Katılacağınız bahis gününde toplam 8 yarış olacaktır. 

 Her bir yarışta 10 adet at yarışmaktadır. 

 Her bir yarış için tek bir at için bahis oynama opsiyonunuz bulunmaktadır. 

 

 Devam etmek için SPACE tuşuna basın.","Birazdan karşınıza çıkacak tabloyu dikkatlice inceleyiniz. 

 

 Devam etmek için SPACE tuşuna basın.","4","psycho","C:/Users/B128-G/Desktop/OZGUR/Horse Racing - Experiment 1/data/subject-534.csv","psycho","3","Melodramatic Milgram","4.0.24","yarişin başindan beri beklenenden daha yavaş başladi hiz kazanamadi pistte gittikçe ivme kaybetmey başladi ve seyircileri hayal kirikliğina uğratti","yes","yes","no","NA","NA","NA","NA","NA","NA","NA","NA","NA","NA","NA","NA","NA","2","psycho","1024","2","48000","-16","experiment","534","even","Yanda deney boyunca bahis oynayacağınız yarışlar ve o yarışlarda sıralamasını tahmin etmenizi istediğimiz atların listesi verilmiştir. 

 Birazdan bu yarışlar için sırayla karşınıza bilgiler ve bahis seçenekleri çıkacaktır. 

 Bu isimleri ezberlemek zorunda değilsiniz. 

 Deney yapısını daha iyi anlayabilmeniz verilmiştir.","Yarış No.","At İsmi","At Resmi","İlk beşte bitirir","Son beşte bitirir","Deneyin asıl kısmı başlıyor. 

 Anlamadığınız bir durum varsa bu noktada deneye yürütücümüze sorunuz. 

 

 Devam etmek için SPACE tuşuna basın.","Yarış","6","11232.961700065061","1110507.5376001187","11232.820499921218","NA","NA","11233.06280001998","1201519.2015001085","463067.0853999909","1035775.5183000118","NA","NA","NA","NA","NA","NA","NA","NA","NA","NA","NA","NA","NA","NA","NA","NA","137172.507799929","73864.15049992502","1035775.5756999832","NA","Yeni deney"," geçen hafta kötü bir performans sergiledi. Yarışın başında beklenenden yavaş hareket etti, hız kazanamadı. Pistte ilerlerken adımları dengesizleşti, ivme kaybetti. En sona doğru bacakları tükenmiş gibiydi. Seyircilerin hayal kırıklığı yüzlerinden okunuyordu.","C:\Users\B128-G\Pictures\project linda\RedHorse.png","11","Alaztoynak","Mavi Gölge","Sessiz Adım","4.Yarış","[5, 9, 7, 8, 4, 6, 6, 9, 5, 9]","Bu yarış için Mavi Gölge adlı atın yarışta ilk 5’te mi son 5’te mi yer alacağına karar vermeniz istenecektir. Mavi Gölge, Alaztoynak cinsi bir attır. Birazdan Alaztoynak atları ile ilgili ipuçları verilecektir. 

 

 Devam etmek için SPACE tuşuna basın.","Birazdan Mavi Gölge’in cinsinden başka bir atla ilgili bir hikaye okuyacaksınız. 

 

 Devam etmek için SPACE tuşuna basın.","Alaztoynak cinsinden Sessiz Adım geçen hafta kötü bir performans sergiledi. Yarışın başında beklenenden yavaş hareket etti, hız kazanamadı. Pistte ilerlerken adımları dengesizleşti, ivme kaybetti. En sona doğru bacakları tükenmiş gibiydi. Seyircilerin hayal kırıklığı yüzlerinden okunuyordu.

 

 Devam etmek için SPACE tuşuna basın.","Bir sonraki ekranda Mavi Gölge’in cinsinden başka atların önceki yarışlardaki sonuçlarını göreceksiniz. 

 Göreceğiniz ilk üç sonuç bütün katılımcılara otomatik olarak gösterilmektedir. Bu sonuçlardan sonra diğer sonuçları ipucu olarak alıp almamak sizin elinizdedir. 

 Deneyin sonunda sadece eşitlik halinde daha az ipucu kullanan kişi önde sayılacaktır. 

 

 Devam etmek için SPACE tuşuna basın.","Birazdan Mavi Gölge’in cinsinden başka atların önceki yarışlardaki sonuçlarını göreceksiniz. 

 

 Devam etmek için SPACE tuşuna basın.","1920","0"
"Alaztoynak","Ayna Yol","C:\Users\B128-G\Pictures\project linda\BlackHorse.png","C:\Users\B128-G\Pictures\project linda\BlueHorse.png","Bozdalga","Çıraşyel","Derin Sis","Gece Çizgisi","Gece Kıvılcımı","Gece Yankısı","Göksay","C:\Users\B128-G\Pictures\project linda\GreenHorse.png","Gümüşçimen","NA","Kırık Saat","Kızıldoruk","Kum Çizgisi","Kumtepe","Mavi Gölge"," geçen hafta iyi bir performans sergileyemedi. Başından beri geride kaldı, hiç hızlanamadı. Yarış boyunca istenilen tempoya bir türlü ulaşamadı. Son düzlüğe gelindiğinde hızı oldukça düşmüştü ve yarışı da bu şekilde tamamladı. İzleyenlerin beklentilerini karşılayamadı."," geçen hafta yarışta başarısız bir performans sergiledi. İlk andan itibaren bekleneni veremedi. Yarış boyunca temposunu arttıramadı. Son düzlüğe gelinirken kondisyonunun yetersiz olduğu anlaşılıyordu. Tribünler büyük bir hayal kırıklığına uğradı."," geçen hafta yarışta harika bir performans sergiledi. Yarış boyunca kendini iyi gösterdi. Koşu boyunca piste çok iyi bir uyum sağladı. Güçlü bir performansla izleyenleri etkiledi. Yarışı izleyenler de bu performanstan oldukça etkilendi."," geçen hafta yarışta dikkat çeken bir performans sergiledi. Yarışa dengeli ve güçlü bir şekilde başladı. Yarış boyunca güçlü temposunu koruyarak dikkatleri üzerine çekti. Koşuyu da oldukça etkileyici bir şekilde tamamladı. Seyirciler tarafından hayli takdir edildi.","C:\Users\B128-G\Pictures\project linda\PinkHorse.png","C:\Users\B128-G\Pictures\project linda\PurpleHorse.png","C:\Users\B128-G\Pictures\project linda\RedHorse.png","NA","C:\Users\B128-G\Pictures\project linda\RoganJosh.png","Sessiz Adım","Sessiz Rota","Sis Adımı","Sis Tırısı","Solgun Yaprak"," geçen hafta yarışta ortalama bir performans sergiledi. Yarışa sakin bir başlangıç yaptı ve temposunu korudu. Ne çok geride kaldı ne de öne geçti. Genel olarak istikrarlı bir koşu sergiledi. Seyirciler dikkatle izledi. ","Taş Nehir","Ters Akım","C:\Users\B128-G\Pictures\project linda\TumbleweedHorse.png","Tunçkanat","C:\Users\B128-G\Pictures\project linda\TurquoiseHorse.png","Uzak Melodi"," geçen haftaki yarışta kötü bir performans sergiledi. Yarışın başında hemen geride kaldı. Her adımda, sanki çamura batıyormuş gibi ağırlaşıyordu. Son düzlüğe geldiğinde, bütün hızını kaybetmişti. Tribünlerden homurtularla birlikte yarışı tamamladı."," geçen hafta kötü bir performans sergiledi. Yarışın başında beklenenden yavaş hareket etti, hız kazanamadı. Pistte ilerlerken adımları dengesizleşti, ivme kaybetti. En sona doğru bacakları tükenmiş gibiydi. Seyircilerin hayal kırıklığı yüzlerinden okunuyordu.","geçen hafta yarışta müthiş bir performans sergiledi. Başlangıçta biraz gerideydi ama hızla öne fırladı. Son düzlüğe geldiğinde, rüzgar gibi hızlandı. Bileklerini esnekçe kullanarak ivme kazandı ve rakiplerini geride bıraktı. Sona doğru, herkesin gözü ondaydı. Tribünlerden alkışlar yükseldi.","geçen hafta yarışta etkileyici bir performans sergiledi. Güven veren bir başlangıcın ardından güçlü bir şekilde öne atıldı. Son virajda adımlarını hızlandırırken yelesi rüzgârla beraber savruluyordu. Kuvvetli bacaklarıyla son düzlükte ileriye fırladı. Nal sesleriyle birlikte tribünler de coştu.","Yalnız Rota","Yankı Vadisi","Yeleveren","C:\Users\B128-G\Pictures\project linda\YellowHorse.png","1","1","#D1D1D1","psycho"," cinsinden ","psycho","psycho","Bu yarış için tahmininizi yaptınız. 

 

 Devam etmek için SPACE tuşuna basın.","Birazdan karşınıza çıkacak ekrana Sis Adımı in cinsinden başka bir atla ilgili okuduğunuz hikayeden iki detay yazınız. 

 

 Devam etmek için SPACE tuşuna basın.","Birazdan karşınıza çıkacak ekranda Sis Adımı in cinsinden atlarla ilgili gördüğünüz ipuçlarından son gördüğünüz ipucunun yerini işaretleyiniz. 

 

 Devam etmek için SPACE tuşuna basın.","0","4","0","0","NA","0","5","0","4","NA","NA","NA","NA","NA","NA","NA","NA","NA","NA","NA","NA","NA","NA","NA","NA","0","0","4","NA","0","Mon May 26 10:44:08 2025","The main experiment item","False","project linda main.osexp","C:\Users\B128-G\Desktop\OZGUR\Horse Racing - Experiment 1","False","mono","False","18","no","white","no","my_image","yes","1080","9","2","3","1","1","1","2","NA","NA","NA","NA","6","Merhaba deneyimize hoş geldiniz! 

 Bu deneyde bilişsel karar alma süreçleri incelenmektedir. 

 Birazdan sizden bir at yarışı bahis oyununa katılmanız istenecektir. 

 

 Devam etmek için SPACE tuşuna basın.","Yarışlara bahis oynamadan önce tahminlerinizde size yardımcı olabilecek bazı bilgiler sunulacaktır. 

 Bu bilgileri istediğiniz gibi tahminlerinize kullanmak sizin elinizdedir. 

 

 Devam etmek için SPACE tuşuna basın.","Deneye katılanlar arasında en iyi performans gösteren %10luk dilime girmeniz halinde 0.5 kredi ekstra kazanacaksınız. 

 

 Devam etmek için SPACE tuşuna basın.","Katılacağınız bahis gününde toplam 8 yarış olacaktır. 

 Her bir yarışta 10 adet at yarışmaktadır. 

 Her bir yarış için tek bir at için bahis oynama opsiyonunuz bulunmaktadır. 

 

 Devam etmek için SPACE tuşuna basın.","Birazdan karşınıza çıkacak tabloyu dikkatlice inceleyiniz. 

 

 Devam etmek için SPACE tuşuna basın.","5","psycho","C:/Users/B128-G/Desktop/OZGUR/Horse Racing - Experiment 1/data/subject-534.csv","psycho","3","Melodramatic Milgram","4.0.24","ters akimgeçen güven veren bir şekilde yarişa başladi hizladikça yelesi rüzgar ie birlikte havalandi nal sesleri ile seyircileri heyecanlandirdi","yes","no","no","NA","NA","NA","NA","NA","NA","NA","NA","NA","NA","NA","NA","NA","2","psycho","1024","2","48000","-16","experiment","534","even","Yanda deney boyunca bahis oynayacağınız yarışlar ve o yarışlarda sıralamasını tahmin etmenizi istediğimiz atların listesi verilmiştir. 

 Birazdan bu yarışlar için sırayla karşınıza bilgiler ve bahis seçenekleri çıkacaktır. 

 Bu isimleri ezberlemek zorunda değilsiniz. 

 Deney yapısını daha iyi anlayabilmeniz verilmiştir.","Yarış No.","At İsmi","At Resmi","İlk beşte bitirir","Son beşte bitirir","Deneyin asıl kısmı başlıyor. 

 Anlamadığınız bir durum varsa bu noktada deneye yürütücümüze sorunuz. 

 

 Devam etmek için SPACE tuşuna basın.","Yarış","7","11232.961700065061","1289234.9751000293","11232.820499921218","NA","NA","11233.06280001998","1403975.0153000932","463067.0853999909","1201530.6796999648","NA","NA","NA","NA","NA","NA","NA","NA","NA","NA","NA","NA","NA","NA","NA","NA","137172.507799929","73864.15049992502","1201530.7807000354","NA","Yeni deney","geçen hafta yarışta etkileyici bir performans sergiledi. Güven veren bir başlangıcın ardından güçlü bir şekilde öne atıldı. Son virajda adımlarını hızlandırırken yelesi rüzgârla beraber savruluyordu. Kuvvetli bacaklarıyla son düzlükte ileriye fırladı. Nal sesleriyle birlikte tribünler de coştu.","C:\Users\B128-G\Pictures\project linda\PurpleHorse.png","11","Göksay","Sis Adımı","Ters Akım","5.Yarış","[4, 9, 8, 8, 8, 8, 4, 10, 5, 6]","Bu yarış için Sis Adımı adlı atın yarışta ilk 5’te mi son 5’te mi yer alacağına karar vermeniz istenecektir. Sis Adımı, Göksay cinsi bir attır. Birazdan Göksay atları ile ilgili ipuçları verilecektir. 

 

 Devam etmek için SPACE tuşuna basın.","Birazdan Sis Adımı’in cinsinden başka bir atla ilgili bir hikaye okuyacaksınız. 

 

 Devam etmek için SPACE tuşuna basın.","Göksay cinsinden Ters Akımgeçen hafta yarışta etkileyici bir performans sergiledi. Güven veren bir başlangıcın ardından güçlü bir şekilde öne atıldı. Son virajda adımlarını hızlandırırken yelesi rüzgârla beraber savruluyordu. Kuvvetli bacaklarıyla son düzlükte ileriye fırladı. Nal sesleriyle birlikte tribünler de coştu.

 

 Devam etmek için SPACE tuşuna basın.","Bir sonraki ekranda Sis Adımı’in cinsinden başka atların önceki yarışlardaki sonuçlarını göreceksiniz. 

 Göreceğiniz ilk üç sonuç bütün katılımcılara otomatik olarak gösterilmektedir. Bu sonuçlardan sonra diğer sonuçları ipucu olarak alıp almamak sizin elinizdedir. 

 Deneyin sonunda sadece eşitlik halinde daha az ipucu kullanan kişi önde sayılacaktır. 

 

 Devam etmek için SPACE tuşuna basın.","Birazdan Sis Adımı’in cinsinden başka atların önceki yarışlardaki sonuçlarını göreceksiniz. 

 

 Devam etmek için SPACE tuşuna basın.","1920","0"
"Alaztoynak","Ayna Yol","C:\Users\B128-G\Pictures\project linda\BlackHorse.png","C:\Users\B128-G\Pictures\project linda\BlueHorse.png","Bozdalga","Çıraşyel","Derin Sis","Gece Çizgisi","Gece Kıvılcımı","Gece Yankısı","Göksay","C:\Users\B128-G\Pictures\project linda\GreenHorse.png","Gümüşçimen","NA","Kırık Saat","Kızıldoruk","Kum Çizgisi","Kumtepe","Mavi Gölge"," geçen hafta iyi bir performans sergileyemedi. Başından beri geride kaldı, hiç hızlanamadı. Yarış boyunca istenilen tempoya bir türlü ulaşamadı. Son düzlüğe gelindiğinde hızı oldukça düşmüştü ve yarışı da bu şekilde tamamladı. İzleyenlerin beklentilerini karşılayamadı."," geçen hafta yarışta başarısız bir performans sergiledi. İlk andan itibaren bekleneni veremedi. Yarış boyunca temposunu arttıramadı. Son düzlüğe gelinirken kondisyonunun yetersiz olduğu anlaşılıyordu. Tribünler büyük bir hayal kırıklığına uğradı."," geçen hafta yarışta harika bir performans sergiledi. Yarış boyunca kendini iyi gösterdi. Koşu boyunca piste çok iyi bir uyum sağladı. Güçlü bir performansla izleyenleri etkiledi. Yarışı izleyenler de bu performanstan oldukça etkilendi."," geçen hafta yarışta dikkat çeken bir performans sergiledi. Yarışa dengeli ve güçlü bir şekilde başladı. Yarış boyunca güçlü temposunu koruyarak dikkatleri üzerine çekti. Koşuyu da oldukça etkileyici bir şekilde tamamladı. Seyirciler tarafından hayli takdir edildi.","C:\Users\B128-G\Pictures\project linda\PinkHorse.png","C:\Users\B128-G\Pictures\project linda\PurpleHorse.png","C:\Users\B128-G\Pictures\project linda\RedHorse.png","NA","C:\Users\B128-G\Pictures\project linda\RoganJosh.png","Sessiz Adım","Sessiz Rota","Sis Adımı","Sis Tırısı","Solgun Yaprak"," geçen hafta yarışta ortalama bir performans sergiledi. Yarışa sakin bir başlangıç yaptı ve temposunu korudu. Ne çok geride kaldı ne de öne geçti. Genel olarak istikrarlı bir koşu sergiledi. Seyirciler dikkatle izledi. ","Taş Nehir","Ters Akım","C:\Users\B128-G\Pictures\project linda\TumbleweedHorse.png","Tunçkanat","C:\Users\B128-G\Pictures\project linda\TurquoiseHorse.png","Uzak Melodi"," geçen haftaki yarışta kötü bir performans sergiledi. Yarışın başında hemen geride kaldı. Her adımda, sanki çamura batıyormuş gibi ağırlaşıyordu. Son düzlüğe geldiğinde, bütün hızını kaybetmişti. Tribünlerden homurtularla birlikte yarışı tamamladı."," geçen hafta kötü bir performans sergiledi. Yarışın başında beklenenden yavaş hareket etti, hız kazanamadı. Pistte ilerlerken adımları dengesizleşti, ivme kaybetti. En sona doğru bacakları tükenmiş gibiydi. Seyircilerin hayal kırıklığı yüzlerinden okunuyordu.","geçen hafta yarışta müthiş bir performans sergiledi. Başlangıçta biraz gerideydi ama hızla öne fırladı. Son düzlüğe geldiğinde, rüzgar gibi hızlandı. Bileklerini esnekçe kullanarak ivme kazandı ve rakiplerini geride bıraktı. Sona doğru, herkesin gözü ondaydı. Tribünlerden alkışlar yükseldi.","geçen hafta yarışta etkileyici bir performans sergiledi. Güven veren bir başlangıcın ardından güçlü bir şekilde öne atıldı. Son virajda adımlarını hızlandırırken yelesi rüzgârla beraber savruluyordu. Kuvvetli bacaklarıyla son düzlükte ileriye fırladı. Nal sesleriyle birlikte tribünler de coştu.","Yalnız Rota","Yankı Vadisi","Yeleveren","C:\Users\B128-G\Pictures\project linda\YellowHorse.png","1","0","#D1D1D1","psycho"," cinsinden ","psycho","psycho","Bu yarış için tahmininizi yaptınız. 

 

 Devam etmek için SPACE tuşuna basın.","Birazdan karşınıza çıkacak ekrana Gece Kıvılcımı in cinsinden başka bir atla ilgili okuduğunuz hikayeden iki detay yazınız. 

 

 Devam etmek için SPACE tuşuna basın.","Birazdan karşınıza çıkacak ekranda Gece Kıvılcımı in cinsinden atlarla ilgili gördüğünüz ipuçlarından son gördüğünüz ipucunun yerini işaretleyiniz. 

 

 Devam etmek için SPACE tuşuna basın.","0","5","0","0","NA","0","6","0","5","NA","NA","NA","NA","NA","NA","NA","NA","NA","NA","NA","NA","NA","NA","NA","NA","0","0","5","NA","0","Mon May 26 10:44:08 2025","The main experiment item","False","project linda main.osexp","C:\Users\B128-G\Desktop\OZGUR\Horse Racing - Experiment 1","False","mono","False","18","no","white","no","my_image","yes","1080","9","3","3","1","2","1","2","NA","NA","NA","NA","7","Merhaba deneyimize hoş geldiniz! 

 Bu deneyde bilişsel karar alma süreçleri incelenmektedir. 

 Birazdan sizden bir at yarışı bahis oyununa katılmanız istenecektir. 

 

 Devam etmek için SPACE tuşuna basın.","Yarışlara bahis oynamadan önce tahminlerinizde size yardımcı olabilecek bazı bilgiler sunulacaktır. 

 Bu bilgileri istediğiniz gibi tahminlerinize kullanmak sizin elinizdedir. 

 

 Devam etmek için SPACE tuşuna basın.","Deneye katılanlar arasında en iyi performans gösteren %10luk dilime girmeniz halinde 0.5 kredi ekstra kazanacaksınız. 

 

 Devam etmek için SPACE tuşuna basın.","Katılacağınız bahis gününde toplam 8 yarış olacaktır. 

 Her bir yarışta 10 adet at yarışmaktadır. 

 Her bir yarış için tek bir at için bahis oynama opsiyonunuz bulunmaktadır. 

 

 Devam etmek için SPACE tuşuna basın.","Birazdan karşınıza çıkacak tabloyu dikkatlice inceleyiniz. 

 

 Devam etmek için SPACE tuşuna basın.","6","psycho","C:/Users/B128-G/Desktop/OZGUR/Horse Racing - Experiment 1/data/subject-534.csv","psycho","3","Melodramatic Milgram","4.0.24","koşuya oldukça tempolu başladiğini ve seyirciler tarafindan takdir edildiği belirtilmiştir","yes","no","no","NA","NA","NA","NA","NA","NA","NA","NA","NA","NA","NA","NA","NA","2","psycho","1024","2","48000","-16","experiment","534","even","Yanda deney boyunca bahis oynayacağınız yarışlar ve o yarışlarda sıralamasını tahmin etmenizi istediğimiz atların listesi verilmiştir. 

 Birazdan bu yarışlar için sırayla karşınıza bilgiler ve bahis seçenekleri çıkacaktır. 

 Bu isimleri ezberlemek zorunda değilsiniz. 

 Deney yapısını daha iyi anlayabilmeniz verilmiştir.","Yarış No.","At İsmi","At Resmi","İlk beşte bitirir","Son beşte bitirir","Deneyin asıl kısmı başlıyor. 

 Anlamadığınız bir durum varsa bu noktada deneye yürütücümüze sorunuz. 

 

 Devam etmek için SPACE tuşuna basın.","Yarış","6","11232.961700065061","1468245.6745998934","11232.820499921218","NA","NA","11233.06280001998","1543182.9961000476","463067.0853999909","1403986.6313000675","NA","NA","NA","NA","NA","NA","NA","NA","NA","NA","NA","NA","NA","NA","NA","NA","137172.507799929","73864.15049992502","1403986.7442999966","NA","Yeni deney"," geçen hafta yarışta dikkat çeken bir performans sergiledi. Yarışa dengeli ve güçlü bir şekilde başladı. Yarış boyunca güçlü temposunu koruyarak dikkatleri üzerine çekti. Koşuyu da oldukça etkileyici bir şekilde tamamladı. Seyirciler tarafından hayli takdir edildi.","C:\Users\B128-G\Pictures\project linda\TurquoiseHorse.png","11","Kızıldoruk","Gece Kıvılcımı","Yalnız Rota","6.Yarış","[6, 8, 7, 5, 8, 6, 10, 4, 9, 4]","Bu yarış için Gece Kıvılcımı adlı atın yarışta ilk 5’te mi son 5’te mi yer alacağına karar vermeniz istenecektir. Gece Kıvılcımı, Kızıldoruk cinsi bir attır. Birazdan Kızıldoruk atları ile ilgili ipuçları verilecektir. 

 

 Devam etmek için SPACE tuşuna basın.","Birazdan Gece Kıvılcımı’in cinsinden başka bir atla ilgili bir hikaye okuyacaksınız. 

 

 Devam etmek için SPACE tuşuna basın.","Kızıldoruk cinsinden Yalnız Rota geçen hafta yarışta dikkat çeken bir performans sergiledi. Yarışa dengeli ve güçlü bir şekilde başladı. Yarış boyunca güçlü temposunu koruyarak dikkatleri üzerine çekti. Koşuyu da oldukça etkileyici bir şekilde tamamladı. Seyirciler tarafından hayli takdir edildi.

 

 Devam etmek için SPACE tuşuna basın.","Bir sonraki ekranda Gece Kıvılcımı’in cinsinden başka atların önceki yarışlardaki sonuçlarını göreceksiniz. 

 Göreceğiniz ilk üç sonuç bütün katılımcılara otomatik olarak gösterilmektedir. Bu sonuçlardan sonra diğer sonuçları ipucu olarak alıp almamak sizin elinizdedir. 

 Deneyin sonunda sadece eşitlik halinde daha az ipucu kullanan kişi önde sayılacaktır. 

 

 Devam etmek için SPACE tuşuna basın.","Birazdan Gece Kıvılcımı’in cinsinden başka atların önceki yarışlardaki sonuçlarını göreceksiniz. 

 

 Devam etmek için SPACE tuşuna basın.","1920","0"
"Alaztoynak","Ayna Yol","C:\Users\B128-G\Pictures\project linda\BlackHorse.png","C:\Users\B128-G\Pictures\project linda\BlueHorse.png","Bozdalga","Çıraşyel","Derin Sis","Gece Çizgisi","Gece Kıvılcımı","Gece Yankısı","Göksay","C:\Users\B128-G\Pictures\project linda\GreenHorse.png","Gümüşçimen","NA","Kırık Saat","Kızıldoruk","Kum Çizgisi","Kumtepe","Mavi Gölge"," geçen hafta iyi bir performans sergileyemedi. Başından beri geride kaldı, hiç hızlanamadı. Yarış boyunca istenilen tempoya bir türlü ulaşamadı. Son düzlüğe gelindiğinde hızı oldukça düşmüştü ve yarışı da bu şekilde tamamladı. İzleyenlerin beklentilerini karşılayamadı."," geçen hafta yarışta başarısız bir performans sergiledi. İlk andan itibaren bekleneni veremedi. Yarış boyunca temposunu arttıramadı. Son düzlüğe gelinirken kondisyonunun yetersiz olduğu anlaşılıyordu. Tribünler büyük bir hayal kırıklığına uğradı."," geçen hafta yarışta harika bir performans sergiledi. Yarış boyunca kendini iyi gösterdi. Koşu boyunca piste çok iyi bir uyum sağladı. Güçlü bir performansla izleyenleri etkiledi. Yarışı izleyenler de bu performanstan oldukça etkilendi."," geçen hafta yarışta dikkat çeken bir performans sergiledi. Yarışa dengeli ve güçlü bir şekilde başladı. Yarış boyunca güçlü temposunu koruyarak dikkatleri üzerine çekti. Koşuyu da oldukça etkileyici bir şekilde tamamladı. Seyirciler tarafından hayli takdir edildi.","C:\Users\B128-G\Pictures\project linda\PinkHorse.png","C:\Users\B128-G\Pictures\project linda\PurpleHorse.png","C:\Users\B128-G\Pictures\project linda\RedHorse.png","NA","C:\Users\B128-G\Pictures\project linda\RoganJosh.png","Sessiz Adım","Sessiz Rota","Sis Adımı","Sis Tırısı","Solgun Yaprak"," geçen hafta yarışta ortalama bir performans sergiledi. Yarışa sakin bir başlangıç yaptı ve temposunu korudu. Ne çok geride kaldı ne de öne geçti. Genel olarak istikrarlı bir koşu sergiledi. Seyirciler dikkatle izledi. ","Taş Nehir","Ters Akım","C:\Users\B128-G\Pictures\project linda\TumbleweedHorse.png","Tunçkanat","C:\Users\B128-G\Pictures\project linda\TurquoiseHorse.png","Uzak Melodi"," geçen haftaki yarışta kötü bir performans sergiledi. Yarışın başında hemen geride kaldı. Her adımda, sanki çamura batıyormuş gibi ağırlaşıyordu. Son düzlüğe geldiğinde, bütün hızını kaybetmişti. Tribünlerden homurtularla birlikte yarışı tamamladı."," geçen hafta kötü bir performans sergiledi. Yarışın başında beklenenden yavaş hareket etti, hız kazanamadı. Pistte ilerlerken adımları dengesizleşti, ivme kaybetti. En sona doğru bacakları tükenmiş gibiydi. Seyircilerin hayal kırıklığı yüzlerinden okunuyordu.","geçen hafta yarışta müthiş bir performans sergiledi. Başlangıçta biraz gerideydi ama hızla öne fırladı. Son düzlüğe geldiğinde, rüzgar gibi hızlandı. Bileklerini esnekçe kullanarak ivme kazandı ve rakiplerini geride bıraktı. Sona doğru, herkesin gözü ondaydı. Tribünlerden alkışlar yükseldi.","geçen hafta yarışta etkileyici bir performans sergiledi. Güven veren bir başlangıcın ardından güçlü bir şekilde öne atıldı. Son virajda adımlarını hızlandırırken yelesi rüzgârla beraber savruluyordu. Kuvvetli bacaklarıyla son düzlükte ileriye fırladı. Nal sesleriyle birlikte tribünler de coştu.","Yalnız Rota","Yankı Vadisi","Yeleveren","C:\Users\B128-G\Pictures\project linda\YellowHorse.png","0","0","#D1D1D1","psycho"," cinsinden ","psycho","psycho","Bu yarış için tahmininizi yaptınız. 

 

 Devam etmek için SPACE tuşuna basın.","Birazdan karşınıza çıkacak ekrana Taş Nehir in cinsinden başka bir atla ilgili okuduğunuz hikayeden iki detay yazınız. 

 

 Devam etmek için SPACE tuşuna basın.","Birazdan karşınıza çıkacak ekranda Taş Nehir in cinsinden atlarla ilgili gördüğünüz ipuçlarından son gördüğünüz ipucunun yerini işaretleyiniz. 

 

 Devam etmek için SPACE tuşuna basın.","0","6","0","0","NA","0","7","0","6","NA","NA","NA","NA","NA","NA","NA","NA","NA","NA","NA","NA","NA","NA","NA","NA","0","0","6","NA","0","Mon May 26 10:44:08 2025","The main experiment item","False","project linda main.osexp","C:\Users\B128-G\Desktop\OZGUR\Horse Racing - Experiment 1","False","mono","False","18","no","white","no","my_image","yes","1080","9","4","3","2","2","1","2","NA","NA","NA","NA","8","Merhaba deneyimize hoş geldiniz! 

 Bu deneyde bilişsel karar alma süreçleri incelenmektedir. 

 Birazdan sizden bir at yarışı bahis oyununa katılmanız istenecektir. 

 

 Devam etmek için SPACE tuşuna basın.","Yarışlara bahis oynamadan önce tahminlerinizde size yardımcı olabilecek bazı bilgiler sunulacaktır. 

 Bu bilgileri istediğiniz gibi tahminlerinize kullanmak sizin elinizdedir. 

 

 Devam etmek için SPACE tuşuna basın.","Deneye katılanlar arasında en iyi performans gösteren %10luk dilime girmeniz halinde 0.5 kredi ekstra kazanacaksınız. 

 

 Devam etmek için SPACE tuşuna basın.","Katılacağınız bahis gününde toplam 8 yarış olacaktır. 

 Her bir yarışta 10 adet at yarışmaktadır. 

 Her bir yarış için tek bir at için bahis oynama opsiyonunuz bulunmaktadır. 

 

 Devam etmek için SPACE tuşuna basın.","Birazdan karşınıza çıkacak tabloyu dikkatlice inceleyiniz. 

 

 Devam etmek için SPACE tuşuna basın.","7","psycho","C:/Users/B128-G/Desktop/OZGUR/Horse Racing - Experiment 1/data/subject-534.csv","psycho","3","Melodramatic Milgram","4.0.24","yarişa oldukça yavaş başladiği yariş sonnunda beklenenden çok daha kötü bir performans sergilediği ve yariş sonucu isteneni karşilamadiği belirtilmiştir","yes","yes","no","NA","NA","NA","NA","NA","NA","NA","NA","NA","NA","NA","NA","NA","2","psycho","1024","2","48000","-16","experiment","534","even","Yanda deney boyunca bahis oynayacağınız yarışlar ve o yarışlarda sıralamasını tahmin etmenizi istediğimiz atların listesi verilmiştir. 

 Birazdan bu yarışlar için sırayla karşınıza bilgiler ve bahis seçenekleri çıkacaktır. 

 Bu isimleri ezberlemek zorunda değilsiniz. 

 Deney yapısını daha iyi anlayabilmeniz verilmiştir.","Yarış No.","At İsmi","At Resmi","İlk beşte bitirir","Son beşte bitirir","Deneyin asıl kısmı başlıyor. 

 Anlamadığınız bir durum varsa bu noktada deneye yürütücümüze sorunuz. 

 

 Devam etmek için SPACE tuşuna basın.","Yarış","5","11232.961700065061","1583358.488400001","11232.820499921218","NA","NA","11233.06280001998","1685487.9783000797","463067.0853999909","1543192.2096000053","NA","NA","NA","NA","NA","NA","NA","NA","NA","NA","NA","NA","NA","NA","NA","NA","137172.507799929","73864.15049992502","1543192.3003999982","NA","Yeni deney"," geçen hafta iyi bir performans sergileyemedi. Başından beri geride kaldı, hiç hızlanamadı. Yarış boyunca istenilen tempoya bir türlü ulaşamadı. Son düzlüğe gelindiğinde hızı oldukça düşmüştü ve yarışı da bu şekilde tamamladı. İzleyenlerin beklentilerini karşılayamadı.","C:\Users\B128-G\Pictures\project linda\YellowHorse.png","11","Tunçkanat","Taş Nehir","Kum Çizgisi","7.Yarış","[5, 9, 6, 8, 7, 8, 3, 10, 5, 9]","Bu yarış için Taş Nehir adlı atın yarışta ilk 5’te mi son 5’te mi yer alacağına karar vermeniz istenecektir. Taş Nehir, Tunçkanat cinsi bir attır. Birazdan Tunçkanat atları ile ilgili ipuçları verilecektir. 

 

 Devam etmek için SPACE tuşuna basın.","Birazdan Taş Nehir’in cinsinden başka bir atla ilgili bir hikaye okuyacaksınız. 

 

 Devam etmek için SPACE tuşuna basın.","Tunçkanat cinsinden Kum Çizgisi geçen hafta iyi bir performans sergileyemedi. Başından beri geride kaldı, hiç hızlanamadı. Yarış boyunca istenilen tempoya bir türlü ulaşamadı. Son düzlüğe gelindiğinde hızı oldukça düşmüştü ve yarışı da bu şekilde tamamladı. İzleyenlerin beklentilerini karşılayamadı.

 

 Devam etmek için SPACE tuşuna basın.","Bir sonraki ekranda Taş Nehir’in cinsinden başka atların önceki yarışlardaki sonuçlarını göreceksiniz. 

 Göreceğiniz ilk üç sonuç bütün katılımcılara otomatik olarak gösterilmektedir. Bu sonuçlardan sonra diğer sonuçları ipucu olarak alıp almamak sizin elinizdedir. 

 Deneyin sonunda sadece eşitlik halinde daha az ipucu kullanan kişi önde sayılacaktır. 

 

 Devam etmek için SPACE tuşuna basın.","Birazdan Taş Nehir’in cinsinden başka atların önceki yarışlardaki sonuçlarını göreceksiniz. 

 

 Devam etmek için SPACE tuşuna basın.","1920","0"
"Alaztoynak","Ayna Yol","C:\Users\B128-G\Pictures\project linda\BlackHorse.png","C:\Users\B128-G\Pictures\project linda\BlueHorse.png","Bozdalga","Çıraşyel","Derin Sis","Gece Çizgisi","Gece Kıvılcımı","Gece Yankısı","Göksay","C:\Users\B128-G\Pictures\project linda\GreenHorse.png","Gümüşçimen","NA","Kırık Saat","Kızıldoruk","Kum Çizgisi","Kumtepe","Mavi Gölge"," geçen hafta iyi bir performans sergileyemedi. Başından beri geride kaldı, hiç hızlanamadı. Yarış boyunca istenilen tempoya bir türlü ulaşamadı. Son düzlüğe gelindiğinde hızı oldukça düşmüştü ve yarışı da bu şekilde tamamladı. İzleyenlerin beklentilerini karşılayamadı."," geçen hafta yarışta başarısız bir performans sergiledi. İlk andan itibaren bekleneni veremedi. Yarış boyunca temposunu arttıramadı. Son düzlüğe gelinirken kondisyonunun yetersiz olduğu anlaşılıyordu. Tribünler büyük bir hayal kırıklığına uğradı."," geçen hafta yarışta harika bir performans sergiledi. Yarış boyunca kendini iyi gösterdi. Koşu boyunca piste çok iyi bir uyum sağladı. Güçlü bir performansla izleyenleri etkiledi. Yarışı izleyenler de bu performanstan oldukça etkilendi."," geçen hafta yarışta dikkat çeken bir performans sergiledi. Yarışa dengeli ve güçlü bir şekilde başladı. Yarış boyunca güçlü temposunu koruyarak dikkatleri üzerine çekti. Koşuyu da oldukça etkileyici bir şekilde tamamladı. Seyirciler tarafından hayli takdir edildi.","C:\Users\B128-G\Pictures\project linda\PinkHorse.png","C:\Users\B128-G\Pictures\project linda\PurpleHorse.png","C:\Users\B128-G\Pictures\project linda\RedHorse.png","NA","C:\Users\B128-G\Pictures\project linda\RoganJosh.png","Sessiz Adım","Sessiz Rota","Sis Adımı","Sis Tırısı","Solgun Yaprak"," geçen hafta yarışta ortalama bir performans sergiledi. Yarışa sakin bir başlangıç yaptı ve temposunu korudu. Ne çok geride kaldı ne de öne geçti. Genel olarak istikrarlı bir koşu sergiledi. Seyirciler dikkatle izledi. ","Taş Nehir","Ters Akım","C:\Users\B128-G\Pictures\project linda\TumbleweedHorse.png","Tunçkanat","C:\Users\B128-G\Pictures\project linda\TurquoiseHorse.png","Uzak Melodi"," geçen haftaki yarışta kötü bir performans sergiledi. Yarışın başında hemen geride kaldı. Her adımda, sanki çamura batıyormuş gibi ağırlaşıyordu. Son düzlüğe geldiğinde, bütün hızını kaybetmişti. Tribünlerden homurtularla birlikte yarışı tamamladı."," geçen hafta kötü bir performans sergiledi. Yarışın başında beklenenden yavaş hareket etti, hız kazanamadı. Pistte ilerlerken adımları dengesizleşti, ivme kaybetti. En sona doğru bacakları tükenmiş gibiydi. Seyircilerin hayal kırıklığı yüzlerinden okunuyordu.","geçen hafta yarışta müthiş bir performans sergiledi. Başlangıçta biraz gerideydi ama hızla öne fırladı. Son düzlüğe geldiğinde, rüzgar gibi hızlandı. Bileklerini esnekçe kullanarak ivme kazandı ve rakiplerini geride bıraktı. Sona doğru, herkesin gözü ondaydı. Tribünlerden alkışlar yükseldi.","geçen hafta yarışta etkileyici bir performans sergiledi. Güven veren bir başlangıcın ardından güçlü bir şekilde öne atıldı. Son virajda adımlarını hızlandırırken yelesi rüzgârla beraber savruluyordu. Kuvvetli bacaklarıyla son düzlükte ileriye fırladı. Nal sesleriyle birlikte tribünler de coştu.","Yalnız Rota","Yankı Vadisi","Yeleveren","C:\Users\B128-G\Pictures\project linda\YellowHorse.png","0","1","#D1D1D1","psycho"," cinsinden ","psycho","psycho","Bu yarış için tahmininizi yaptınız. 

 

 Devam etmek için SPACE tuşuna basın.","Birazdan karşınıza çıkacak ekrana Kırık Saat in cinsinden başka bir atla ilgili okuduğunuz hikayeden iki detay yazınız. 

 

 Devam etmek için SPACE tuşuna basın.","Birazdan karşınıza çıkacak ekranda Kırık Saat in cinsinden atlarla ilgili gördüğünüz ipuçlarından son gördüğünüz ipucunun yerini işaretleyiniz. 

 

 Devam etmek için SPACE tuşuna basın.","0","7","0","0","NA","0","8","0","7","NA","NA","NA","NA","NA","NA","NA","NA","NA","NA","NA","NA","NA","NA","NA","NA","0","0","7","NA","1","Mon May 26 10:44:08 2025","The main experiment item","False","project linda main.osexp","C:\Users\B128-G\Desktop\OZGUR\Horse Racing - Experiment 1","False","mono","False","18","no","white","no","my_image","yes","1080","9","4","4","2","2","2","2","NA","NA","NA","NA","9","Merhaba deneyimize hoş geldiniz! 

 Bu deneyde bilişsel karar alma süreçleri incelenmektedir. 

 Birazdan sizden bir at yarışı bahis oyununa katılmanız istenecektir. 

 

 Devam etmek için SPACE tuşuna basın.","Yarışlara bahis oynamadan önce tahminlerinizde size yardımcı olabilecek bazı bilgiler sunulacaktır. 

 Bu bilgileri istediğiniz gibi tahminlerinize kullanmak sizin elinizdedir. 

 

 Devam etmek için SPACE tuşuna basın.","Deneye katılanlar arasında en iyi performans gösteren %10luk dilime girmeniz halinde 0.5 kredi ekstra kazanacaksınız. 

 

 Devam etmek için SPACE tuşuna basın.","Katılacağınız bahis gününde toplam 8 yarış olacaktır. 

 Her bir yarışta 10 adet at yarışmaktadır. 

 Her bir yarış için tek bir at için bahis oynama opsiyonunuz bulunmaktadır. 

 

 Devam etmek için SPACE tuşuna basın.","Birazdan karşınıza çıkacak tabloyu dikkatlice inceleyiniz. 

 

 Devam etmek için SPACE tuşuna basın.","8","psycho","C:/Users/B128-G/Desktop/OZGUR/Horse Racing - Experiment 1/data/subject-534.csv","psycho","3","Melodramatic Milgram","4.0.24","yarişin başindan ber kötü başladiği sank çamura batar gibi ağirlaştiği ve sonrasinda tribünlerde homurtularin çikmasina neden olmuştur","yes","yes","no","NA","NA","NA","NA","NA","NA","NA","NA","NA","NA","NA","NA","NA","2","psycho","1024","2","48000","-16","experiment","534","even","Yanda deney boyunca bahis oynayacağınız yarışlar ve o yarışlarda sıralamasını tahmin etmenizi istediğimiz atların listesi verilmiştir. 

 Birazdan bu yarışlar için sırayla karşınıza bilgiler ve bahis seçenekleri çıkacaktır. 

 Bu isimleri ezberlemek zorunda değilsiniz. 

 Deney yapısını daha iyi anlayabilmeniz verilmiştir.","Yarış No.","At İsmi","At Resmi","İlk beşte bitirir","Son beşte bitirir","Deneyin asıl kısmı başlıyor. 

 Anlamadığınız bir durum varsa bu noktada deneye yürütücümüze sorunuz. 

 

 Devam etmek için SPACE tuşuna basın.","Yarış","2","11232.961700065061","1748536.1997000873","11232.820499921218","NA","NA","11233.06280001998","1834054.6589998994","463067.0853999909","1685499.140100088","NA","NA","NA","NA","NA","NA","NA","NA","NA","NA","NA","NA","NA","NA","NA","NA","137172.507799929","73864.15049992502","1685499.2307999637","NA","Yeni deney"," geçen haftaki yarışta kötü bir performans sergiledi. Yarışın başında hemen geride kaldı. Her adımda, sanki çamura batıyormuş gibi ağırlaşıyordu. Son düzlüğe geldiğinde, bütün hızını kaybetmişti. Tribünlerden homurtularla birlikte yarışı tamamladı.","C:\Users\B128-G\Pictures\project linda\TumbleweedHorse.png","11","Gümüşçimen","Kırık Saat","Sis Tırısı","8.Yarış","[7, 1, 3, 4, 2, 6, 3, 4, 7, 3]","Bu yarış için Kırık Saat adlı atın yarışta ilk 5’te mi son 5’te mi yer alacağına karar vermeniz istenecektir. Kırık Saat, Gümüşçimen cinsi bir attır. Birazdan Gümüşçimen atları ile ilgili ipuçları verilecektir. 

 

 Devam etmek için SPACE tuşuna basın.","Birazdan Kırık Saat’in cinsinden başka bir atla ilgili bir hikaye okuyacaksınız. 

 

 Devam etmek için SPACE tuşuna basın.","Gümüşçimen cinsinden Sis Tırısı geçen haftaki yarışta kötü bir performans sergiledi. Yarışın başında hemen geride kaldı. Her adımda, sanki çamura batıyormuş gibi ağırlaşıyordu. Son düzlüğe geldiğinde, bütün hızını kaybetmişti. Tribünlerden homurtularla birlikte yarışı tamamladı.

 

 Devam etmek için SPACE tuşuna basın.","Bir sonraki ekranda Kırık Saat’in cinsinden başka atların önceki yarışlardaki sonuçlarını göreceksiniz. 

 Göreceğiniz ilk üç sonuç bütün katılımcılara otomatik olarak gösterilmektedir. Bu sonuçlardan sonra diğer sonuçları ipucu olarak alıp almamak sizin elinizdedir. 

 Deneyin sonunda sadece eşitlik halinde daha az ipucu kullanan kişi önde sayılacaktır. 

 

 Devam etmek için SPACE tuşuna basın.","Birazdan Kırık Saat’in cinsinden başka atların önceki yarışlardaki sonuçlarını göreceksiniz. 

 

 Devam etmek için SPACE tuşuna basın.","1920","0"
